Folder: conductive_gelatin/FTIR/dry_coagulation

File: gelatin_powder.csv
Created as New Dataset,Sample 000 By FTIR User 2.0 Date Friday, April 12 2024
cm-1,%T
4000.00,100.04
3987.00,100.03
3974.00,100.02
3961.00,100.02
3948.00,100.02
3935.00,100.02
3922.00,100.00
3909.00,100.01
3896.00,99.96
3883.00,99.95
3870.00,99.94
3857.00,99.95
3844.00,99.96
3831.00,99.93
3818.00,99.91
3805.00,99.98
3792.00,99.98
3779.00,99.97
3766.00,99.95
3753.00,99.93
3740.00,99.90
3727.00,99.92
3714.00,99.95
3701.00,99.97
3688.00,99.92
3675.00,99.90
3662.00,99.98
3649.00,99.89
3636.00,99.98
3623.00,99.94
3610.00,99.90
3597.00,99.95
3584.00,99.91
3571.00,99.96
3558.00,99.93
3545.00,99.92
3532.00,99.92
3519.00,99.90
3506.00,99.90
3493.00,99.90
3480.00,99.90
3467.00,99.90
3454.00,99.88
3441.00,99.86
3428.00,99.87
3415.00,99.84
3402.00,99.85
3389.00,99.83
3376.00,99.82
3363.00,99.80
3350.00,99.79
3337.00,99.78
3324.00,99.78
3311.00,99.75
3298.00,99.76
3285.00,99.75
3272.00,99.76
3259.00,99.77
3246.00,99.78
3233.00,99.80
3220.00,99.78
3207.00,99.80
3194.00,99.81
3181.00,99.82
3168.00,99.84
3155.00,99.84
3142.00,99.85
3129.00,99.86
3116.00,99.87
3103.00,99.86
3090.00,99.86
3077.00,99.86
3064.00,99.84
3051.00,99.86
3038.00,99.86
3025.00,99.87
3012.00,99.87
2999.00,99.88
2986.00,99.86
2973.00,99.85
2960.00,99.84
2947.00,99.84
2934.00,99.84
2921.00,99.86
2908.00,99.86
2895.00,99.87
2882.00,99.87
2869.00,99.88
2856.00,99.89
2843.00,99.89
2830.00,99.90
2817.00,99.90
2804.00,99.90
2791.00,99.90
2778.00,99.90
2765.00,99.90
2752.00,99.90
2739.00,99.90
2726.00,99.91
2713.00,99.91
2700.00,99.91
2687.00,99.90
2674.00,99.91
2661.00,99.90
2648.00,99.89
2635.00,99.89
2622.00,99.89
2609.00,99.89
2596.00,99.89
2583.00,99.89
2570.00,99.89
2557.00,99.88
2544.00,99.89
2531.00,99.88
2518.00,99.89
2505.00,99.88
2492.00,99.89
2479.00,99.88
2466.00,99.89
2453.00,99.88
2440.00,99.87
2427.00,99.88
2414.00,99.88
2401.00,99.87
2388.00,99.88
2375.00,99.90
2362.00,99.89
2349.00,99.87
2336.00,99.87
2323.00,99.85
2310.00,99.85
2297.00,99.84
2284.00,99.84
2271.00,99.83
2258.00,99.84
2245.00,99.83
2232.00,99.84
2219.00,99.83
2206.00,99.82
2193.00,99.82
2180.00,99.84
2167.00,99.82
2154.00,99.83
2141.00,99.85
2128.00,99.83
2115.00,99.82
2102.00,99.81
2089.00,99.81
2076.00,99.83
2063.00,99.81
2050.00,99.80
2037.00,99.78
2024.00,99.79
2011.00,99.75
1998.00,99.79
1985.00,99.77
1972.00,99.77
1959.00,99.79
1946.00,99.78
1933.00,99.79
1920.00,99.78
1907.00,99.79
1894.00,99.78
1881.00,99.78
1868.00,99.79
1855.00,99.78
1842.00,99.78
1829.00,99.80
1816.00,99.79
1803.00,99.79
1790.00,99.78
1777.00,99.79
1764.00,99.79
1751.00,99.80
1738.00,99.79
1725.00,99.76
1712.00,99.72
1699.00,99.63
1686.00,99.45
1673.00,99.30
1660.00,99.12
1647.00,98.98
1634.00,98.91
1621.00,98.98
1608.00,99.17
1595.00,99.33
1582.00,99.36
1569.00,99.30
1556.00,99.19
1543.00,99.12
1530.00,99.05
1517.00,99.05
1504.00,99.19
1491.00,99.34
1478.00,99.40
1465.00,99.35
1452.00,99.24
1439.00,99.25
1426.00,99.30
1413.00,99.32
1400.00,99.32
1387.00,99.35
1374.00,99.39
1361.00,99.43
1348.00,99.42
1335.00,99.37
1322.00,99.39
1309.00,99.41
1296.00,99.43
1283.00,99.41
1270.00,99.39
1257.00,99.36
1244.00,99.32
1231.00,99.30
1218.00,99.35
1205.00,99.37
1192.00,99.39
1179.00,99.43
1166.00,99.42
1153.00,99.42
1140.00,99.45
1127.00,99.44
1114.00,99.42
1101.00,99.38
1088.00,99.34
1075.00,99.33
1062.00,99.35
1049.00,99.38
1036.00,99.39
1023.00,99.40
1010.00,99.44
997.00,99.47
984.00,99.48
971.00,99.48
958.00,99.51
945.00,99.51
932.00,99.51
919.00,99.50
906.00,99.50
893.00,99.50
880.00,99.48
867.00,99.48
854.00,99.46
841.00,99.45
828.00,99.46
815.00,99.42
802.00,99.40
789.00,99.38
776.00,99.34
763.00,99.30
750.00,99.27
737.00,99.25
724.00,99.21
711.00,99.14
698.00,99.09
685.00,99.07
672.00,99.02
659.00,99.00
646.00,98.95
633.00,98.88
620.00,98.81
607.00,98.73
594.00,98.71
581.00,98.77
568.00,98.57
555.00,98.63
542.00,98.45
529.00,98.76
516.00,99.86
503.00,97.35
490.00,34.43
477.00,176.81
464.00,69.06
451.00,50.51
438.00,153.07
425.00,82.40
412.00,86.56
400.00,88.18